# Filter name : CTIO/DECam.i
# Description : DECam i filter (total transmission). DR1
# Photometric system : DECam
# FilterType : photon
# Band name : i
# Observatory : CTIO
# Instrument : DECam
# Comments : The system response includes the total throughput of the system (instrument + atmosphere). 
# 
6.75000e+03 0.00000e+00
6.75500e+03 4.00000e-04
6.76000e+03 7.90000e-04
6.76500e+03 8.50000e-04
6.77000e+03 9.10000e-04
6.77500e+03 9.80000e-04
6.78000e+03 1.04000e-03
6.78500e+03 1.10000e-03
6.79000e+03 1.16000e-03
6.79500e+03 1.22000e-03
6.80000e+03 1.28000e-03
6.80500e+03 1.35000e-03
6.81000e+03 1.43000e-03
6.81500e+03 1.51000e-03
6.82000e+03 1.59000e-03
6.82500e+03 1.69000e-03
6.83000e+03 1.79000e-03
6.83500e+03 1.89000e-03
6.84000e+03 1.99000e-03
6.84500e+03 2.12000e-03
6.85000e+03 2.26000e-03
6.85500e+03 2.40000e-03
6.86000e+03 2.52000e-03
6.86500e+03 2.56000e-03
6.87000e+03 2.37000e-03
6.87500e+03 2.33000e-03
6.88000e+03 2.69000e-03
6.88500e+03 3.08000e-03
6.89000e+03 3.23000e-03
6.89500e+03 3.42000e-03
6.90000e+03 3.71000e-03
6.90500e+03 4.08000e-03
6.91000e+03 4.47000e-03
6.91500e+03 4.85000e-03
6.92000e+03 5.23000e-03
6.92500e+03 5.86000e-03
6.93000e+03 6.49000e-03
6.93500e+03 7.09000e-03
6.94000e+03 7.67000e-03
6.94500e+03 8.86000e-03
6.95000e+03 1.00700e-02
6.95500e+03 1.12600e-02
6.96000e+03 1.24400e-02
6.96500e+03 1.53300e-02
6.97000e+03 1.82700e-02
6.97500e+03 2.11600e-02
6.98000e+03 2.40000e-02
6.98500e+03 3.06700e-02
6.99000e+03 3.72700e-02
6.99500e+03 4.39800e-02
7.00000e+03 5.07900e-02
7.00500e+03 6.44700e-02
7.01000e+03 7.81200e-02
7.01500e+03 9.18300e-02
7.02000e+03 1.05550e-01
7.02500e+03 1.28550e-01
7.03000e+03 1.51740e-01
7.03500e+03 1.75360e-01
7.04000e+03 1.98420e-01
7.04500e+03 2.30970e-01
7.05000e+03 2.63520e-01
7.05500e+03 2.95930e-01
7.06000e+03 3.28690e-01
7.06500e+03 3.66580e-01
7.07000e+03 4.04550e-01
7.07500e+03 4.42280e-01
7.08000e+03 4.80020e-01
7.08500e+03 5.16700e-01
7.09000e+03 5.53270e-01
7.09500e+03 5.89710e-01
7.10000e+03 6.25840e-01
7.10500e+03 6.56080e-01
7.11000e+03 6.86530e-01
7.11500e+03 7.17010e-01
7.12000e+03 7.47380e-01
7.12500e+03 7.68240e-01
7.13000e+03 7.88860e-01
7.13500e+03 8.09870e-01
7.14000e+03 8.30810e-01
7.14500e+03 8.41810e-01
7.15000e+03 8.52540e-01
7.15500e+03 8.63770e-01
7.16000e+03 8.73930e-01
7.16500e+03 8.72730e-01
7.17000e+03 8.63270e-01
7.17500e+03 8.53990e-01
7.18000e+03 8.52020e-01
7.18500e+03 8.40910e-01
7.19000e+03 8.34380e-01
7.19500e+03 8.37220e-01
7.20000e+03 8.39880e-01
7.20500e+03 8.47410e-01
7.21000e+03 8.66880e-01
7.21500e+03 8.85730e-01
7.22000e+03 8.91640e-01
7.22500e+03 8.90130e-01
7.23000e+03 8.78650e-01
7.23500e+03 8.60610e-01
7.24000e+03 8.59340e-01
7.24500e+03 8.62410e-01
7.25000e+03 8.68320e-01
7.25500e+03 8.73430e-01
7.26000e+03 8.81570e-01
7.26500e+03 8.83210e-01
7.27000e+03 8.84110e-01
7.27500e+03 8.80200e-01
7.28000e+03 8.81360e-01
7.28500e+03 8.94260e-01
7.29000e+03 8.93640e-01
7.29500e+03 8.96280e-01
7.30000e+03 9.02910e-01
7.30500e+03 8.99620e-01
7.31000e+03 8.99400e-01
7.31500e+03 9.01030e-01
7.32000e+03 9.05150e-01
7.32500e+03 9.11890e-01
7.33000e+03 9.13890e-01
7.33500e+03 9.12750e-01
7.34000e+03 9.13640e-01
7.34500e+03 9.13860e-01
7.35000e+03 9.12880e-01
7.35500e+03 9.12740e-01
7.36000e+03 9.11580e-01
7.36500e+03 9.12170e-01
7.37000e+03 9.13670e-01
7.37500e+03 9.16570e-01
7.38000e+03 9.18910e-01
7.38500e+03 9.20800e-01
7.39000e+03 9.23060e-01
7.39500e+03 9.25140e-01
7.40000e+03 9.27400e-01
7.40500e+03 9.29600e-01
7.41000e+03 9.31150e-01
7.41500e+03 9.32520e-01
7.42000e+03 9.34070e-01
7.42500e+03 9.34280e-01
7.43000e+03 9.34870e-01
7.43500e+03 9.35650e-01
7.44000e+03 9.35960e-01
7.44500e+03 9.35510e-01
7.45000e+03 9.35350e-01
7.45500e+03 9.34990e-01
7.46000e+03 9.34820e-01
7.46500e+03 9.34690e-01
7.47000e+03 9.34470e-01
7.47500e+03 9.34140e-01
7.48000e+03 9.33920e-01
7.48500e+03 9.34370e-01
7.49000e+03 9.34720e-01
7.49500e+03 9.35170e-01
7.50000e+03 9.35530e-01
7.50500e+03 9.35810e-01
7.51000e+03 9.36370e-01
7.51500e+03 9.36840e-01
7.52000e+03 9.37210e-01
7.52500e+03 9.37580e-01
7.53000e+03 9.37950e-01
7.53500e+03 9.38220e-01
7.54000e+03 9.38490e-01
7.54500e+03 9.37990e-01
7.55000e+03 9.37570e-01
7.55500e+03 9.37160e-01
7.56000e+03 9.36560e-01
7.56500e+03 9.35770e-01
7.57000e+03 9.34880e-01
7.57500e+03 9.33990e-01
7.58000e+03 9.32920e-01
7.58500e+03 9.24580e-01
7.59000e+03 8.75770e-01
7.59500e+03 6.93870e-01
7.60000e+03 4.35920e-01
7.60500e+03 3.02470e-01
7.61000e+03 3.18460e-01
7.61500e+03 4.55530e-01
7.62000e+03 5.99220e-01
7.62500e+03 5.79030e-01
7.63000e+03 5.00730e-01
7.63500e+03 5.01980e-01
7.64000e+03 5.45830e-01
7.64500e+03 5.99450e-01
7.65000e+03 6.62820e-01
7.65500e+03 7.20300e-01
7.66000e+03 7.66780e-01
7.66500e+03 8.06150e-01
7.67000e+03 8.47900e-01
7.67500e+03 8.75740e-01
7.68000e+03 8.91680e-01
7.68500e+03 9.01520e-01
7.69000e+03 9.08280e-01
7.69500e+03 9.14670e-01
7.70000e+03 9.22550e-01
7.70500e+03 9.28260e-01
7.71000e+03 9.30890e-01
7.71500e+03 9.32130e-01
7.72000e+03 9.32990e-01
7.72500e+03 9.33770e-01
7.73000e+03 9.34360e-01
7.73500e+03 9.35130e-01
7.74000e+03 9.35820e-01
7.74500e+03 9.37690e-01
7.75000e+03 9.39280e-01
7.75500e+03 9.41060e-01
7.76000e+03 9.42550e-01
7.76500e+03 9.43410e-01
7.77000e+03 9.44080e-01
7.77500e+03 9.44840e-01
7.78000e+03 9.45420e-01
7.78500e+03 9.45650e-01
7.79000e+03 9.45890e-01
7.79500e+03 9.46030e-01
7.80000e+03 9.46360e-01
7.80500e+03 9.45850e-01
7.81000e+03 9.45440e-01
7.81500e+03 9.45020e-01
7.82000e+03 9.44610e-01
7.82500e+03 9.44160e-01
7.83000e+03 9.43720e-01
7.83500e+03 9.43280e-01
7.84000e+03 9.42930e-01
7.84500e+03 9.43100e-01
7.85000e+03 9.43170e-01
7.85500e+03 9.43340e-01
7.86000e+03 9.43410e-01
7.86500e+03 9.42870e-01
7.87000e+03 9.42420e-01
7.87500e+03 9.42450e-01
7.88000e+03 9.42100e-01
7.88500e+03 9.40530e-01
7.89000e+03 9.38020e-01
7.89500e+03 9.35610e-01
7.90000e+03 9.34230e-01
7.90500e+03 9.32680e-01
7.91000e+03 9.31220e-01
7.91500e+03 9.30320e-01
7.92000e+03 9.28660e-01
7.92500e+03 9.25310e-01
7.93000e+03 9.23440e-01
7.93500e+03 9.23980e-01
7.94000e+03 9.23310e-01
7.94500e+03 9.20850e-01
7.95000e+03 9.17840e-01
7.95500e+03 9.14290e-01
7.96000e+03 9.08350e-01
7.96500e+03 9.06490e-01
7.97000e+03 9.08570e-01
7.97500e+03 9.09630e-01
7.98000e+03 9.09870e-01
7.98500e+03 9.11580e-01
7.99000e+03 9.13560e-01
7.99500e+03 9.15640e-01
8.00000e+03 9.16060e-01
8.00500e+03 9.17310e-01
8.01000e+03 9.19120e-01
8.01500e+03 9.21940e-01
8.02000e+03 9.24950e-01
8.02500e+03 9.26000e-01
8.03000e+03 9.27040e-01
8.03500e+03 9.29110e-01
8.04000e+03 9.30810e-01
8.04500e+03 9.30970e-01
8.05000e+03 9.32340e-01
8.05500e+03 9.33630e-01
8.06000e+03 9.33690e-01
8.06500e+03 9.33610e-01
8.07000e+03 9.33820e-01
8.07500e+03 9.33930e-01
8.08000e+03 9.33950e-01
8.08500e+03 9.31400e-01
8.09000e+03 9.28940e-01
8.09500e+03 9.25740e-01
8.10000e+03 9.23940e-01
8.10500e+03 9.20170e-01
8.11000e+03 9.14090e-01
8.11500e+03 9.14450e-01
8.12000e+03 9.15450e-01
8.12500e+03 9.14090e-01
8.13000e+03 9.07920e-01
8.13500e+03 8.96670e-01
8.14000e+03 8.92080e-01
8.14500e+03 8.90560e-01
8.15000e+03 8.83660e-01
8.15500e+03 8.75360e-01
8.16000e+03 8.67150e-01
8.16500e+03 8.64200e-01
8.17000e+03 8.78280e-01
8.17500e+03 8.78300e-01
8.18000e+03 8.64420e-01
8.18500e+03 8.72850e-01
8.19000e+03 8.78990e-01
8.19500e+03 8.78290e-01
8.20000e+03 8.76750e-01
8.20500e+03 8.93930e-01
8.21000e+03 9.06540e-01
8.21500e+03 9.03700e-01
8.22000e+03 8.92520e-01
8.22500e+03 8.59490e-01
8.23000e+03 8.16000e-01
8.23500e+03 8.33520e-01
8.24000e+03 8.74650e-01
8.24500e+03 8.89490e-01
8.25000e+03 8.92640e-01
8.25500e+03 8.89760e-01
8.26000e+03 8.87430e-01
8.26500e+03 8.97990e-01
8.27000e+03 9.01340e-01
8.27500e+03 8.85190e-01
8.28000e+03 8.76040e-01
8.28500e+03 8.84570e-01
8.29000e+03 8.86370e-01
8.29500e+03 8.91220e-01
8.30000e+03 9.01860e-01
8.30500e+03 9.08730e-01
8.31000e+03 9.21930e-01
8.31500e+03 9.22580e-01
8.32000e+03 9.13990e-01
8.32500e+03 9.20880e-01
8.33000e+03 9.30800e-01
8.33500e+03 9.30330e-01
8.34000e+03 9.32600e-01
8.34500e+03 9.37160e-01
8.35000e+03 9.37540e-01
8.35500e+03 9.35000e-01
8.36000e+03 9.33790e-01
8.36500e+03 9.33610e-01
8.37000e+03 9.33800e-01
8.37500e+03 9.32870e-01
8.38000e+03 9.31830e-01
8.38500e+03 9.32310e-01
8.39000e+03 9.32220e-01
8.39500e+03 9.30320e-01
8.40000e+03 9.27950e-01
8.40500e+03 9.27710e-01
8.41000e+03 9.27460e-01
8.41500e+03 9.28610e-01
8.42000e+03 9.29480e-01
8.42500e+03 9.30480e-01
8.43000e+03 9.30730e-01
8.43500e+03 9.33000e-01
8.44000e+03 9.35820e-01
8.44500e+03 9.36530e-01
8.45000e+03 9.37040e-01
8.45500e+03 9.37560e-01
8.46000e+03 9.37510e-01
8.46500e+03 9.41240e-01
8.47000e+03 9.45540e-01
8.47500e+03 9.49370e-01
8.48000e+03 9.52620e-01
8.48500e+03 9.54980e-01
8.49000e+03 9.57540e-01
8.49500e+03 9.60280e-01
8.50000e+03 9.62930e-01
8.50500e+03 9.55340e-01
8.51000e+03 9.47560e-01
8.51500e+03 9.39870e-01
8.52000e+03 9.32660e-01
8.52500e+03 8.99560e-01
8.53000e+03 8.66160e-01
8.53500e+03 8.32490e-01
8.54000e+03 7.98650e-01
8.54500e+03 7.31960e-01
8.55000e+03 6.65460e-01
8.55500e+03 5.98860e-01
8.56000e+03 5.32230e-01
8.56500e+03 4.00740e-01
8.57000e+03 2.69140e-01
8.57500e+03 2.70200e-01
8.58000e+03 2.71340e-01
8.58500e+03 1.89500e-01
8.59000e+03 1.07570e-01
8.59500e+03 1.07350e-01
8.60000e+03 1.07140e-01
8.60500e+03 7.29900e-02
8.61000e+03 3.88300e-02
8.61500e+03 3.89200e-02
8.62000e+03 3.90100e-02
8.62500e+03 2.65700e-02
8.63000e+03 1.41400e-02
8.63500e+03 1.43200e-02
8.64000e+03 1.45000e-02
8.64500e+03 1.02100e-02
8.65000e+03 5.92000e-03
8.65500e+03 5.83000e-03
8.66000e+03 5.75000e-03
8.66500e+03 4.23000e-03
8.67000e+03 2.71000e-03
8.67500e+03 2.47000e-03
8.68000e+03 2.24000e-03
8.68500e+03 2.00000e-03
8.69000e+03 1.77000e-03
8.69500e+03 8.90000e-04
8.70000e+03 0.00000e+00
